{
	"resourceType": "Bundle",
	"type": "transaction",
	"entry": [
		{
			"fullUrl": "urn:uuid:17C7D86E-664F-4FE2-91D7-AF9A8E47311E",
			"resource": {
				"resourceType": "Organization",
				"text": {
					"status": "generated",
					"div": "<div xmlns=\"http://www.w3.org/1999/xhtml\"> UWEARME - A DIVISION OF HEALTH GIZMOS                        CORP </div>"
				},
				"identifier": [
					{
						"system": "http://fhirfun2021.org/ids",
						"value": "UWEARME"
					}
				],
				"name": "UWEARME",
				"address": [
					{
						"line": [
							"2000 WEARABLE DRIVE"
						],
						"city": "ANN ARBOR",
						"state": "MI",
						"country": "US"
					}
				]
			},
			"request": {
				"method": "PUT",
				"url": "Organization/458"
			}
		},
		{
			"fullUrl": "urn:uuid:0fc374a1-a226-4552-9683-55dd510e67c9",
			"resource": {
				"resourceType": "Patient",
				"text": {
					"status": "generated",
					"div": "<div xmlns=\"http://www.w3.org/1999/xhtml\"> Arthas Menethil Id # arthas.menethil </div>"
				},
				"identifier": [
					{
						"system": "http://hospitalxyz.com/patients",
						"value": "arthas.menethil"
					}
				],
				"name": [
					{
						"family": "Menethil",
						"given": [
							"Arthas"
						]
					}
				],
				"address": [
					{
						"line": [
							"77 Icecrown Boulevard"
						],
						"city": "Stormwind",
						"state": "NY",
						"country": "US"
					}
				],
				"managingOrganization": {
					"reference": "urn:uuid:17C7D86E-664F-4FE2-91D7-AF9A8E47311E"
				}
			},
			"request": {
				"method": "PUT",
				"url": "Patient/108636"
			}
		},
		{
			"fullUrl": "urn:uuid:b405c692-54ea-4d0d-afb1-8f91880a3f24",
			"resource": {
				"resourceType": "Device",
				"text": {
					"status": "generated",
					"div": "<div xmlns=\"http://www.w3.org/1999/xhtml\"> UW Device arthas.menethil                    </div>"
				},
				"identifier": [
					{
						"system": "http://uwearme.com/dev",
						"value": "arthas.menethil"
					}
				],
				"expirationDate": "2020-10-10",
				"lotNumber": "22222",
				"modelNumber": "u888800-1",
				"type": {
					"coding": [
						{
							"system": "http://snomed.info/sct",
							"code": "33894003",
							"display": "Experimental Device"
						}
					]
				},
				"patient": {
					"reference": "urn:uuid:0fc374a1-a226-4552-9683-55dd510e67c9"
				},
				"owner": {
					"reference": "urn:uuid:17C7D86E-664F-4FE2-91D7-AF9A8E47311E"
				}
			},
			"request": {
				"method": "PUT",
				"url": "Device?identifier=http://uwearme.com/dev|arthas.menethil"
			}
		},
		{
			"fullUrl": "urn:uuid:9b3055be-bb9f-4fce-b5da-599286eb2841",
			"resource": {
				"resourceType": "Observation",
				"text": {
					"status": "generated",
					"div": "<div xmlns=\"http://www.w3.org/1999/xhtml\"> UW Measure for Pat # arthas.menethil Respiratory rate:16/min on 2025-11-05T10:00:00Z </div>"
				},
				"identifier": [
					{
						"system": "http://uwearme.com/measures",
						"value": "arthas.menethil-2025-11-05T10:00:00Z-9279-1"
					}
				],
				"status": "final",
				"code": {
					"coding": [
						{
							"system": "http://loinc.org",
							"code": "9279-1",
							"display": "Respiratory rate"
						}
					]
				},
				"subject": {
					"reference": "urn:uuid:0fc374a1-a226-4552-9683-55dd510e67c9"
				},
				"effectiveDateTime": "2025-11-05T10:00:00Z",
				"valueQuantity": {
					"value": 16,
					"unit": "/min"
				},
				"device": {
					"reference": "urn:uuid:b405c692-54ea-4d0d-afb1-8f91880a3f24"
				}
			},
			"request": {
				"method": "POST",
				"url": "Observation"
			}
		},
		{
			"fullUrl": "urn:uuid:bf551c01-8aa5-4ace-99d4-ae03a5bc89e7",
			"resource": {
				"resourceType": "Observation",
				"text": {
					"status": "generated",
					"div": "<div xmlns=\"http://www.w3.org/1999/xhtml\"> UW Measure for Pat # arthas.menethil Systolic blood pressure: 120mmHg on 2025-11-05T10:00:00Z </div>"
				},
				"identifier": [
					{
						"system": "http://uwearme.com/measures",
						"value": "arthas.menethil-2025-11-05T10:00:00Z-8480-6"
					}
				],
				"status": "final",
				"code": {
					"coding": [
						{
							"system": "http://loinc.org",
							"code": "8480-6",
							"display": "Systolic blood pressure"
						}
					]
				},
				"subject": {
					"reference": "urn:uuid:0fc374a1-a226-4552-9683-55dd510e67c9"
				},
				"effectiveDateTime": "2025-11-05T10:00:00Z",
				"valueQuantity": {
                    "value": 120,
					"unit": "mmHg"
				},
				"device": {
					"reference": "urn:uuid:b405c692-54ea-4d0d-afb1-8f91880a3f24"
				}
			},
			"request": {
				"method": "POST",
				"url": "Observation"
			}
		},
		{
			"fullUrl": "urn:uuid:54e8f280-8f5c-4d63-a174-29a091ecb06a",
			"resource": {
				"resourceType": "Observation",
				"text": {
					"status": "generated",
					"div": "<div xmlns=\"http://www.w3.org/1999/xhtml\"> UW Measure for Pat # arthas.menethil Diastolic blood pressure:80mmHg on 2025-11-05T10:00:00Z </div>"
				},
				"identifier": [
					{
						"system": "http://uwearme.com/measures",
						"value": "arthas.menethil-2025-11-05T10:00:00Z-8462-4"
					}
				],
				"status": "final",
				"code": {
					"coding": [
						{
							"system": "http://loinc.org",
							"code": "8462-4",
							"display": "Diastolic blood pressure"
						}
					]
				},
				"subject": {
					"reference": "urn:uuid:0fc374a1-a226-4552-9683-55dd510e67c9"
				},
				"effectiveDateTime": "2025-11-05T10:00:00Z",
				"valueQuantity": {
					"value": 80,
					"unit": "mmHg"
				},
				"device": {
					"reference": "urn:uuid:b405c692-54ea-4d0d-afb1-8f91880a3f24"
				}
			},
			"request": {
				"method": "POST",
				"url": "Observation"
			}
		},
		{
			"fullUrl": "urn:uuid:55c0f3ad-4a2e-4516-8e2c-3db15ed62941",
			"resource": {
				"resourceType": "Observation",
				"text": {
					"status": "generated",
					"div": "<div xmlns=\"http://www.w3.org/1999/xhtml\"> UW Measure for Pat #arthas.menethil Heart rate:                        72/min on 2025-11-05T10:00:00Z </div>"
				},
				"identifier": [
					{
						"system": "http://uwearme.com/measures",
						"value": "arthas.menethil-2025-11-05T10:00:00Z-8867-4"
					}
				],
				"status": "final",
				"code": {
					"coding": [
						{
							"system": "http://loinc.org",
							"code": "8867-4",
							"display": "Heart rate"
						}
					]
				},
				"subject": {
					"reference": "urn:uuid:0fc374a1-a226-4552-9683-55dd510e67c9"
				},
				"effectiveDateTime": "2025-11-05T10:00:00Z",
				"valueQuantity": {
					"value": 72,
					"unit": "/min"
				},
				"device": {
					"reference": "urn:uuid:b405c692-54ea-4d0d-afb1-8f91880a3f24"
				}
			},
			"request": {
				"method": "POST",
				"url": "Observation"
			}
		}
	]
}